AccelerationX,AccelerationY,AccelerationZ
0.0181,0.0009,1.0013
0.0177,0.0006,1.0005
0.0178,0.0005,1.0006
0.0178,0.0001,1.0004
0.0166,-0.0002,0.9999
0.016,0.0005,1.0002
0.017,0.0004,1.0011
0.0166,0.0006,1.0016
0.0174,-0.0009,1.0008
0.0189,-0.0007,1.0004
0.0177,-0.0002,0.9999
0.0166,0.0005,0.9999
0.0169,0.001,1.0008
0.017,0.001,1.0005
0.0169,0.0008,1.0002
0.0168,-0.0002,1.0005
0.0172,-0.0006,1.0013
0.0161,0.0012,0.9999
0.015,0.001,0.9998
0.0162,-0.0004,1.0017
0.0171,-0.0001,1.0017
0.0162,0.0002,1
0.0155,0.0013,0.9988
0.0165,0.0005,1.0001
0.0171,-0.0012,1.0005
0.0166,0.0003,1.0007
0.0163,0.0007,1.0004
0.0161,-0.001,0.9998
0.017,0.0006,1
0.0175,0,1.0006
0.0169,0,1.0007
0.0171,0.0007,1.0014
0.017,-0.0002,1.0014
0.016,0.0009,1.0011
0.0165,0.0019,1.0012
0.0179,0.0003,1.0006
0.0178,0.0007,1
0.0161,0.0016,1.0011
0.0159,0.0008,1.001
0.0164,0.0008,1.0005
0.0171,0.0007,1.0011
0.0166,0,1.0012
0.0157,0,0.9999
0.0169,-0.0006,0.9995
0.0179,-0.0002,1.0002
0.017,0.001,1.0004
0.0165,-0.0002,1.0009
0.0169,-0.0003,1.0011
0.0171,0.0003,1.0008
0.0166,-0.0005,1.0003
0.0169,0,1.0005
0.0178,0.0004,1.0007
0.0165,-0.0008,0.9998
0.0165,-0.0001,0.9992
0.0172,0.0003,1.0005
0.0171,-0.0009,1.0008
0.0168,0.0012,1.0001
0.0163,0.0007,0.9997
0.0161,0.0001,1.0007
0.0164,0.0008,1.0013
0.0167,-0.0002,1.0002
0.0176,-0.0008,1
0.0169,0,1.0001
0.0161,-0.0004,0.9996
0.0174,0,0.9999
0.0179,0.0013,1.0006
0.0173,0.0002,1.0003
0.0173,-0.0005,0.9991
0.0171,0.0004,0.9992
0.0175,0.0008,1.0013
0.017,0.0012,1.0026
0.0169,0.0007,1.0014
0.0177,-0.0002,1.0002
0.018,-0.0008,1.0001
0.0171,-0.0006,1.0001
0.0164,0.0002,1.0002
0.017,0.0005,1.0006
0.0177,0.0001,1.0008
0.017,0.0005,1.0008
0.0169,0,1
0.0176,-0.0003,0.9996
0.018,0.0006,1.0003
0.0179,0.0014,1.0016
0.0172,0.0013,1.0009
0.0169,0.0011,1.0001
0.0167,-0.0003,0.9996
0.017,-0.0003,0.9998
0.0177,0.0007,1.0003
0.0171,0.0001,1.0001
0.0168,0.0003,1
0.0162,0.0006,1.0009
0.0166,0,1.0006
0.0175,-0.0001,1.0004
0.0183,0.0003,1.0014
0.0181,0.0003,1.0019
0.018,-0.0002,1.0013
0.0174,0.0002,1.001
0.0166,0.0006,1.0009
0.0167,0.001,1.0008
0.0175,0.001,1.001
0.0174,0.0009,1.0015
0.0166,0.0009,1.0018
0.0167,0.0007,1.0005
0.0183,0.0009,1.0005
0.0177,0.0014,1.0007
0.0164,0.0003,1.0003
0.0159,0.0001,1.0004
0.0159,0.0008,1.001
0.0167,0.0006,1.0016
0.0166,-0.0008,1.0009
0.0165,-0.0006,1.0006
0.0165,0.0008,1.0008
0.0168,0.0014,1.0012
0.0168,0.0012,1.0011
0.017,0.001,1.0015
0.0174,0.0015,1.002
0.0166,0.0012,1.0012
0.0159,0.0007,1.0009
0.0168,0.0002,1.0008
0.0173,-0.0011,1.0005
0.017,-0.0008,1.0005
0.0166,0,0.9997
0.017,0.0001,0.9997
0.018,0.0015,1.0008
0.0177,0.0014,1.0009
0.0173,-0.0002,1.0006
0.0177,0.0002,1.001
0.0179,0.0008,1.0016
0.0168,0.0006,1.0009
0.0167,0.0006,1.0012
0.0167,0.0001,1.0006
0.0165,-0.0005,1.0002
0.016,0.0001,1.0012
0.0169,0.0004,1.0005
0.0173,0.0006,1.0011
0.0169,0.001,1.0013
0.0173,0.0006,1.0007
0.0172,0.0004,1.0009
0.0173,0.0003,1.0015
0.0169,-0.0002,1.0016
0.0174,-0.0001,1.0011
0.0171,-0.0004,1.0005
0.0165,-0.0001,1
0.0164,0.0003,1.0005
0.0171,-0.001,1.0011
0.0166,-0.0006,1.0005
0.0166,0.0004,1.0003
0.0173,0.0004,1.0008
0.0167,0.0017,1.0008
0.0162,0.0016,1.0008
0.0166,0.0012,1.0012
0.0174,0.0013,1.0017
0.0167,0.001,1.0015
0.0164,0.001,1.0007
0.0168,-0.0002,0.9999
0.0171,-0.0006,0.9997
0.0174,0.0005,1.0002
0.0173,0.0002,1.0013
0.0173,0.0001,1.0017
0.0172,0.0009,1.001
0.0167,0.001,1.0007
0.0169,0.0003,1.0013
0.0176,-0.0001,1.0012
0.0172,0,1.0005
0.0159,-0.0004,1.0006
0.0167,-0.0002,1.0005
0.0169,0.0008,1.0003
0.0176,0.0006,0.9995
0.0175,0.0001,0.9998
0.0179,-0.0002,1.0003
0.0184,-0.0001,1
0.0173,0.0001,1.0004
0.0171,0.0004,1.0009
0.0177,0.0007,1.0005
0.0174,0.0008,1.0004
0.0166,0.0001,1.0004
0.017,0.0001,1.0009
0.017,0.0006,1.0013
0.0174,0.0006,1.0014
0.0169,0.0008,1.0012
0.0165,0.0004,1.0004
0.0168,0.0003,1.0006
0.0168,0.0002,1.0005
0.0166,-0.0002,1.0003
0.0162,0.0007,1.0009
0.0161,0.001,1.0013
0.0165,0.0003,1.001
0.0169,0,1.0008
0.0169,-0.0003,1.0014
0.0164,0.0002,1.0016
0.0157,0.0007,1.0004
0.0165,0.0009,1.0003
0.0171,0.001,1.0003
0.0174,0.0007,1.0007
0.0179,0.0002,1.001
0.0174,0.0001,1.0001
0.0172,-0.0009,0.9989
0.0176,-0.0006,0.9998
0.0175,0.0002,1.0008
0.0179,-0.0001,1.0007
0.0174,-0.0009,1.0001
0.0172,-0.0004,1.0005
0.0167,0.0006,1.0014
0.0169,0.0016,1.0012
0.0172,0.0009,1.0005
0.0169,0.0007,1.0008
0.0165,0.0004,1.0007
0.0165,-0.0009,0.9996
0.0167,-0.001,0.9996
0.0175,-0.0004,1.0006
0.0179,0.0005,1.0016
0.0174,-0.0001,1.0011
0.0167,-0.0003,1.0003
0.0163,0.0003,1
0.0163,0,1.0007
0.0164,0,1.0009
0.0167,0.0004,1.0002
0.0169,0.0009,0.9997
0.0167,0.0008,0.9999
0.0166,-0.0003,1.0003
0.0167,-0.0008,1.0008
0.0167,0.0007,1.0013
0.0167,0.0012,1.0013
0.0178,0.0003,1.0011
0.0172,0,1.0008
0.0168,-0.0005,1.0004
0.0176,-0.0004,1.0002
0.0175,-0.0008,1.0007
0.0164,0,1.0006
0.0163,0.001,1.0011
0.0173,-0.0001,1.0005
0.0174,-0.0002,0.9999
0.0169,0.0002,1.0007
0.0164,0.0004,1.0005
0.0162,0.0004,1
0.017,0.0012,1
0.0175,0.001,1.0014
0.0169,0,1.0009
0.0163,-0.0002,1
0.0161,0.0001,1.0007
0.0171,0.0005,1.0001
0.0177,0.001,1.0007
0.0176,0.0005,1.0011
0.017,-0.0005,1.0002
0.0175,-0.0006,0.9999
0.0175,-0.0006,0.9997
0.0174,-0.0006,1.0004
0.0174,-0.0006,1.0002
0.0173,0.0005,0.9998
0.0173,0.0009,0.9999
0.017,0.0003,1.0009
0.0173,0,1.0002
0.0177,0.001,1.001
0.0167,0.0002,1.0013
0.0166,0.0004,1.0013
0.0171,0.0007,1.0008
0.0163,-0.0008,1.0003
0.0163,-0.0007,1.0002
0.0171,0.0009,1.0007
0.0166,0.0009,1.0019
0.0162,0.001,1.0018
0.0171,0.0008,1.0014
0.0181,0.001,1.0007
0.019,0.0007,0.9998
0.0188,0.0004,1
0.0179,-0.0002,1.0004
0.0166,0.0001,1.0003
0.0166,0.0001,1
0.0167,-0.0008,0.9999
0.0161,-0.0004,1.0006
0.0166,0.0001,1.0004
0.0178,-0.0002,1.0002
0.0172,0.0003,1.0004
0.017,0.0012,1.0007
0.0176,0.0013,1.0016
0.018,0.0011,1.0016
0.018,0,1.0003
0.0175,-0.0002,1
0.0173,0.0005,1.0005
0.017,0.0011,1.0012
0.017,0.0015,1.0014
0.0173,0.001,1.0011
0.0174,0.0011,1.0009
0.0172,0.0011,1.0008
0.0176,0.0007,1.0009
0.0177,0.0001,1.0007
0.0167,0.0003,1.0007
0.0162,0.0006,1.0011
0.0172,0.0003,1.0008
0.0175,-0.0003,1.0002
0.0172,0.0005,1.0009
0.0169,0.001,1.0018
0.0167,0.0006,1.0016
0.0162,-0.0001,1.0007
0.0156,0.0001,1.0013
0.0163,0.001,1.001
0.0174,0.0004,1.0006
0.0176,0.0003,1.0011
0.0164,0.0003,1.0006
0.0164,0.0001,1.0003
0.0171,0.0011,1.0004
0.0171,0.0002,0.9999
0.0169,0.0001,1.0001
0.0169,0.0019,1.0007
0.0168,0.0008,1.001
0.0166,0.0001,1.0009
0.0172,0.0008,1.0003
0.0173,-0.0001,0.9998
0.0175,-0.0006,0.9991
0.0176,-0.0005,1
0.0164,-0.0011,1.0009
0.0166,-0.0005,1.0003
0.017,0.0006,1.0003
0.0168,0.0004,1.0005
0.0167,0.0004,1.0003
0.0163,0,1.0016
0.0162,0.0009,1.0017
0.0165,0.0013,0.9996
0.0169,0.0009,0.9998
0.0166,0.0001,1.001
0.0168,-0.0007,1
0.0172,0.0006,1.0009
0.017,0.0013,1.0009
0.016,0.0015,0.9999
0.0165,0.0012,1.0005
0.0172,0.0007,1.0005
0.0172,0.0003,1.0002
0.0178,-0.0005,1.0004
0.0174,0.0002,1.0012
0.0167,0.0005,1.0012
0.0169,0.0005,1.001
0.017,0.0006,1.0009
0.0174,0.0002,1.0009
0.018,0.0001,1.0006
0.0167,-0.0001,1.0006
0.0154,-0.0003,1.0012
0.0159,0.0008,1.0008
0.0166,0.0008,1.0002
0.0167,0.0003,1.0002
0.0171,-0.0004,1.0002
0.0172,0,1.0005
0.0173,0,1.0006
0.0174,0.0005,1.0016
0.017,0.0004,1.0013
0.0166,-0.0004,1
0.0172,-0.0004,0.9999
0.0166,-0.0004,1.0002
0.0167,0.0009,1.0012
0.0164,0.0005,1.0013
0.0159,-0.0002,0.9998
0.017,0.0001,1
0.0177,-0.0002,0.9996
0.0174,0.0002,1
0.0165,0.0012,1.0004
0.0157,0.0007,1.0002
0.0161,0.0002,1
0.0165,0.0013,1.0006
0.0167,0.002,1.0014
0.0173,0.0012,1.0004
0.017,0.0005,1.0006
0.0166,0.0004,1.0008
0.0167,0.0003,1.0001
0.0171,0.0001,1
0.0168,-0.0003,1
0.0167,0.0002,1.0003
0.0169,0.0007,1.0003
0.0168,0.0007,1.0009
0.017,0.0016,1.0012
0.0172,0.0013,1.0006
0.0173,0.0002,1.0005
0.0176,-0.0004,1.0009
0.0172,-0.0005,1.0003
0.0169,0.0002,1.0012
0.017,0.0003,1.0008
0.0169,0.0006,1.0006
0.017,-0.0005,0.9999
0.0174,-0.0014,0.9994
0.0173,-0.0019,0.9998
0.0175,-0.0003,1.0008
0.0173,0.0005,1.0016
0.0179,-0.0033,1.0006
0.0171,-0.0062,0.999
0.0169,-0.0044,0.9976
0.0185,0.0039,0.9983
0.0189,0.0079,1.0008
0.0166,-0.0068,0.9996
0.0148,-0.0216,0.9994
0.0164,-0.0103,0.9999
0.019,0.0045,1.0014
0.0187,-0.0007,1.0005
0.0156,-0.0136,0.9975
0.0161,-0.0186,0.9976
0.0181,-0.0152,1.0005
0.0188,-0.0122,1.0004
0.0168,-0.0191,0.9986
0.0159,-0.0217,0.9975
0.0175,-0.0161,1
0.0187,-0.0205,1.0008
0.0177,-0.0319,0.999
0.017,-0.0373,0.9991
0.0166,-0.0338,1.0003
0.0172,-0.0245,0.9995
0.0181,-0.0295,0.9984
0.0173,-0.0493,0.9981
0.0164,-0.0508,0.9987
0.0178,-0.0432,1.0006
0.0168,-0.0557,1
0.0153,-0.063,0.9954
0.0177,-0.0507,0.9963
0.0197,-0.0569,1.0007
0.0183,-0.081,0.9975
0.016,-0.0857,0.9936
0.0185,-0.0697,0.9974
0.0213,-0.0693,1.0004
0.0181,-0.0952,0.9956
0.0142,-0.1165,0.9901
0.0175,-0.0938,0.9939
0.0225,-0.0744,1.0013
0.0182,-0.1189,0.9958
0.0122,-0.1504,0.985
0.0174,-0.1145,0.99
0.0243,-0.1053,1.0012
0.0191,-0.1461,0.9898
0.0129,-0.1509,0.9827
0.0172,-0.1407,0.9942
0.0213,-0.1582,0.992
0.0178,-0.1667,0.9803
0.0161,-0.1585,0.9841
0.0191,-0.1638,0.9926
0.0186,-0.1853,0.9866
0.015,-0.2103,0.974
0.0196,-0.1936,0.9772
0.0229,-0.1872,0.9903
0.018,-0.21,0.983
0.0129,-0.2332,0.9669
0.0183,-0.2321,0.9677
0.0252,-0.2179,0.9806
0.022,-0.2398,0.9786
0.0144,-0.2765,0.9572
0.0142,-0.2686,0.9635
0.0227,-0.2455,0.9736
0.0229,-0.2691,0.9694
0.0171,-0.3083,0.9489
0.0157,-0.3105,0.9495
0.018,-0.3016,0.9556
0.0183,-0.3012,0.9603
0.0184,-0.3269,0.9507
0.0194,-0.3494,0.936
0.0194,-0.3535,0.9354
0.0193,-0.3414,0.9431
0.0174,-0.3554,0.9391
0.0187,-0.373,0.9296
0.0216,-0.3917,0.9224
0.0216,-0.4033,0.9112
0.0174,-0.398,0.9206
0.0146,-0.4032,0.9221
0.0185,-0.416,0.9134
0.0227,-0.4492,0.8952
0.0221,-0.4515,0.8872
0.0183,-0.4365,0.9024
0.015,-0.4543,0.8989
0.0144,-0.478,0.884
0.0191,-0.49,0.8697
0.0259,-0.4828,0.8735
0.0242,-0.4927,0.8815
0.0149,-0.5115,0.862
0.0118,-0.5319,0.8495
0.0201,-0.528,0.8499
0.0263,-0.5185,0.8653
0.0225,-0.542,0.8456
0.0136,-0.5709,0.8172
0.0124,-0.5838,0.8176
0.0207,-0.568,0.8233
0.0249,-0.5618,0.8426
0.0195,-0.5938,0.8086
0.0158,-0.6103,0.7904
0.0168,-0.6212,0.7839
0.02,-0.6127,0.793
0.0203,-0.6189,0.794
0.0173,-0.6327,0.7795
0.0161,-0.6507,0.7607
0.0174,-0.6596,0.7553
0.0193,-0.6488,0.7627
0.0207,-0.6617,0.7585
0.0171,-0.691,0.7245
0.017,-0.6887,0.7258
0.0199,-0.6818,0.7337
0.0202,-0.694,0.7276
0.0178,-0.7095,0.7099
0.0164,-0.7227,0.6873
0.0164,-0.7303,0.6874
0.0177,-0.7256,0.6937
0.0177,-0.7286,0.6917
0.0175,-0.74,0.6825
0.0188,-0.7551,0.6601
0.0185,-0.7719,0.6326
0.018,-0.7692,0.6351
0.0189,-0.7606,0.6595
0.0165,-0.7764,0.6437
0.0156,-0.7891,0.6195
0.0188,-0.7977,0.5964
0.0192,-0.7964,0.6022
0.0159,-0.8063,0.6022
0.0116,-0.8209,0.5752
0.0142,-0.8134,0.5788
0.021,-0.8196,0.5775
0.0212,-0.8338,0.5599
0.016,-0.8367,0.5472
0.0135,-0.8475,0.5314
0.0148,-0.8499,0.5323
0.0171,-0.8451,0.5352
0.0175,-0.8602,0.5164
0.0164,-0.8749,0.4933
0.0152,-0.8656,0.4897
0.0138,-0.8694,0.4965
0.012,-0.8909,0.4665
0.0158,-0.886,0.455
0.0184,-0.8872,0.4628
0.0163,-0.894,0.4566
0.013,-0.9081,0.4308
0.013,-0.91,0.4036
0.0158,-0.9064,0.4244
0.0175,-0.9136,0.4203
0.014,-0.9214,0.3936
0.0117,-0.9264,0.3723
0.012,-0.9296,0.3583
0.0149,-0.9283,0.3794
0.0175,-0.9314,0.37
0.0137,-0.9373,0.3479
0.0099,-0.9485,0.3136
0.011,-0.9479,0.3152
0.0152,-0.946,0.3367
0.0152,-0.9552,0.3056
0.0118,-0.9609,0.2839
0.0115,-0.96,0.276
0.0141,-0.9617,0.2792
0.015,-0.9671,0.2729
0.0114,-0.9726,0.2403
0.0112,-0.9725,0.227
0.0138,-0.9749,0.2262
0.0132,-0.9748,0.2379
0.0123,-0.978,0.2153
0.0094,-0.9835,0.1755
0.0101,-0.9839,0.1713
0.0148,-0.983,0.1812
0.0132,-0.9867,0.1905
0.0097,-0.9917,0.1545
0.0103,-0.9892,0.1275
0.013,-0.9898,0.1216
0.0122,-0.9931,0.1241
0.0106,-0.994,0.1197
0.0097,-0.9957,0.104
0.0104,-0.998,0.0782
0.0103,-0.9976,0.0701
0.01,-0.9965,0.0807
0.0092,-1.0016,0.064
0.0085,-1.0006,0.0237
0.0096,-0.9949,0.031
0.0125,-1.0029,0.0358
0.0093,-1.0073,0.02
0.0063,-0.9973,0.0005
0.0093,-0.9959,-0.0257
0.0102,-0.9982,-0.0305
0.0087,-1.0027,-0.022
0.0078,-1.0036,-0.0268
0.0074,-1.0005,-0.039
0.0075,-0.9975,-0.0744
0.0085,-0.9928,-0.0984
0.0086,-0.992,-0.086
0.0079,-1.0003,-0.0701
0.006,-1.005,-0.1042
0.0052,-0.9913,-0.1316
0.0071,-0.9837,-0.1315
0.0086,-0.9886,-0.1345
0.0069,-0.9928,-0.1446
0.0055,-0.9873,-0.1702
0.007,-0.982,-0.1605
0.0072,-0.9871,-0.1751
0.004,-0.9857,-0.1976
0.0051,-0.9738,-0.1972
0.0072,-0.9732,-0.2229
0.0063,-0.9749,-0.2279
0.0049,-0.9747,-0.2208
0.0025,-0.97,-0.2557
0.0037,-0.9625,-0.2642
0.0062,-0.9591,-0.2599
0.0065,-0.9645,-0.2671
0.0034,-0.9593,-0.3031
0.0011,-0.9459,-0.3082
0.0033,-0.9511,-0.2935
0.0052,-0.9543,-0.3172
0.0033,-0.9447,-0.3396
0.0025,-0.9318,-0.3534
0.0024,-0.9381,-0.3364
0.0026,-0.9416,-0.3514
0.0011,-0.924,-0.3841
0.0015,-0.9101,-0.3879
0.0047,-0.9122,-0.3992
0.0045,-0.9245,-0.3857
0.002,-0.9207,-0.398
-0.001,-0.8985,-0.436
-0.0014,-0.8862,-0.4513
0.0019,-0.8942,-0.4379
0.0056,-0.9034,-0.424
0.0039,-0.8924,-0.4703
-0.0016,-0.8703,-0.4859
-0.0023,-0.8713,-0.4751
0.0018,-0.876,-0.4853
0.0011,-0.8676,-0.4945
-0.001,-0.8511,-0.5234
0.0022,-0.845,-0.5239
0.0035,-0.855,-0.5205
-0.0014,-0.8526,-0.5247
-0.0034,-0.8375,-0.5408
-0.0014,-0.8126,-0.5824
0.0013,-0.8169,-0.5645
0.0026,-0.8316,-0.5608
-0.0011,-0.8282,-0.5676
-0.0057,-0.7987,-0.5926
-0.0036,-0.7805,-0.613
0.0001,-0.7829,-0.6095
0.0007,-0.7914,-0.6126
-0.0015,-0.7875,-0.6167
-0.0036,-0.7721,-0.6375
-0.006,-0.7525,-0.6527
-0.0038,-0.75,-0.6501
-0.0002,-0.7594,-0.6417
-0.0003,-0.7492,-0.6655
-0.0031,-0.7249,-0.6922
-0.0059,-0.7218,-0.6794
-0.006,-0.7274,-0.6812
-0.0037,-0.7196,-0.6972
-0.0033,-0.7012,-0.704
-0.0025,-0.6854,-0.7271
-0.0025,-0.6836,-0.727
-0.0045,-0.6897,-0.7223
-0.0048,-0.6864,-0.727
-0.0038,-0.6698,-0.7322
-0.0053,-0.644,-0.7669
-0.0069,-0.6292,-0.7677
-0.0061,-0.6407,-0.7605
-0.0038,-0.655,-0.7548
-0.0048,-0.6346,-0.7755
-0.0085,-0.6018,-0.7963
-0.0091,-0.5929,-0.79
-0.0051,-0.6038,-0.7973
-0.0021,-0.5977,-0.8067
-0.0053,-0.5796,-0.8162
-0.0078,-0.5714,-0.8112
-0.0068,-0.5644,-0.8205
-0.0069,-0.5509,-0.8346
-0.0081,-0.5422,-0.8296
-0.0061,-0.5292,-0.8467
-0.0052,-0.527,-0.8483
-0.0087,-0.5291,-0.8452
-0.0115,-0.5027,-0.8687
-0.0088,-0.4879,-0.8602
-0.0046,-0.4922,-0.8601
-0.0043,-0.4822,-0.8776
-0.0084,-0.4642,-0.885
-0.011,-0.4526,-0.8879
-0.0088,-0.4586,-0.8798
-0.0054,-0.443,-0.8997
-0.0067,-0.4205,-0.9037
-0.0094,-0.4155,-0.9019
-0.0104,-0.4202,-0.9047
-0.0103,-0.4111,-0.906
-0.0089,-0.372,-0.9257
-0.0088,-0.3561,-0.9208
-0.0066,-0.3655,-0.9244
-0.0077,-0.3777,-0.9255
-0.0122,-0.3604,-0.927
-0.0141,-0.3189,-0.9441
-0.0106,-0.307,-0.9435
-0.0054,-0.3249,-0.9396
-0.0058,-0.3301,-0.9378
-0.012,-0.2961,-0.9526
-0.0157,-0.2738,-0.9519
-0.0108,-0.2783,-0.9575
-0.0059,-0.2843,-0.9582
-0.0086,-0.271,-0.9574
-0.014,-0.2505,-0.9602
-0.0132,-0.2366,-0.9624
-0.0102,-0.2313,-0.9687
-0.0082,-0.2387,-0.9652
-0.0083,-0.2308,-0.9709
-0.0113,-0.2153,-0.974
-0.0151,-0.2046,-0.9709
-0.0124,-0.1868,-0.9756
-0.0096,-0.1804,-0.9787
-0.0094,-0.1864,-0.9788
-0.012,-0.198,-0.9758
-0.0147,-0.1739,-0.9815
-0.0149,-0.1397,-0.9846
-0.0116,-0.1455,-0.9779
-0.005,-0.1547,-0.9835
-0.0078,-0.1363,-0.9897
-0.0162,-0.1353,-0.9819
-0.0161,-0.1376,-0.9861
-0.0107,-0.1245,-0.9913
-0.0098,-0.1137,-0.9898
-0.0109,-0.1036,-0.9892
-0.0123,-0.0995,-0.9911
-0.0138,-0.1066,-0.9904
-0.0119,-0.1016,-0.9896
-0.0097,-0.0784,-0.9929
-0.01,-0.0752,-0.9906
-0.0105,-0.0883,-0.9913
-0.0125,-0.0825,-0.998
-0.0163,-0.0708,-0.9922
-0.0147,-0.0589,-0.9924
-0.0099,-0.0538,-0.9957
-0.0103,-0.0535,-0.9956
-0.0132,-0.0568,-0.9942
-0.0145,-0.057,-0.9952
-0.0122,-0.0464,-0.9972
-0.0116,-0.0325,-0.9958
-0.0123,-0.0272,-0.9954
-0.011,-0.0343,-0.9959
-0.0107,-0.0426,-0.9972
-0.0134,-0.0387,-0.9965
-0.0154,-0.0144,-0.9962
-0.014,-0.0059,-0.9942
-0.0112,-0.0249,-0.9951
-0.0102,-0.0326,-0.998
-0.0135,-0.0161,-0.9966
-0.016,-0.0025,-0.9943
-0.0127,-0.0054,-0.9949
-0.0095,-0.0115,-0.9983
-0.0116,-0.0083,-0.9974
-0.0152,-0.0053,-0.9949
-0.015,-0.0085,-0.9961
-0.0131,-0.0095,-0.999
-0.0117,-0.0029,-0.9973
-0.0117,0.0066,-0.995
-0.0116,0.0055,-0.9951
-0.0125,-0.002,-0.9967
-0.0137,-0.003,-0.9967
-0.0131,0.0007,-0.9957
-0.0126,-0.0005,-0.9964
-0.0117,-0.0017,-0.9975
-0.0124,0.0014,-0.9974
-0.013,0.0021,-0.9965
-0.0123,-0.0013,-0.9974
-0.012,-0.0029,-0.9988
-0.0136,-0.0009,-0.9985
-0.0138,0.0028,-0.9975
-0.0132,0.0032,-0.9983
-0.013,-0.0001,-0.9981
-0.013,-0.0025,-0.9974
-0.0139,-0.0013,-0.9973
-0.014,-0.0001,-0.9978
-0.0126,-0.0001,-0.9978
-0.0109,0.0004,-0.9976
-0.0114,0.0009,-0.997
-0.0135,-0.0006,-0.9976
-0.0147,-0.0006,-0.9977
-0.0137,0.0014,-0.9966
-0.0121,0.0017,-0.9968
-0.0115,0.0001,-0.9984
-0.013,-0.0009,-0.9986
-0.0144,-0.001,-0.9975
-0.0134,0.0001,-0.9964
-0.0119,0.0009,-0.9964
-0.0116,-0.0007,-0.9979
-0.0129,-0.0012,-0.9985
-0.015,-0.001,-0.9985
-0.0147,-0.001,-0.9989
-0.0121,0.0001,-0.9976
-0.01,0.0019,-0.9972
-0.011,0.0011,-0.9986
-0.0126,-0.0008,-0.9992
-0.0141,-0.0019,-0.9971
-0.0124,0.0002,-0.9984
-0.0116,-0.0004,-0.9992
-0.0128,-0.0014,-0.9964
-0.0134,0.0003,-0.9971
-0.0122,0.0014,-1.0006
-0.0136,-0.0008,-0.9973
-0.0145,-0.0003,-0.9966
-0.0132,-0.0017,-0.9986
-0.0115,-0.0026,-0.9994
-0.0123,-0.0002,-0.9989
-0.0125,-0.0019,-0.998
-0.0114,-0.0028,-0.9993
-0.0098,0.0003,-0.9989
-0.0107,0.0012,-0.9972
-0.0137,0.0003,-0.997
-0.0156,-0.0003,-0.9983
-0.0163,-0.002,-0.9984
-0.017,-0.0021,-0.9977
-0.0152,0.0001,-0.9974
-0.0122,0.0011,-0.9969
-0.0106,-0.0004,-0.9981
-0.0108,-0.0009,-0.9982
-0.0112,-0.0013,-0.9974
-0.0103,-0.0004,-0.9967
-0.0099,0.0007,-0.9969
-0.012,-0.0003,-0.9967
-0.0147,-0.0004,-0.9968
-0.0155,0,-0.9977
-0.0153,-0.0012,-0.998
-0.0138,-0.0015,-0.9984
-0.0125,0.0001,-0.9963
-0.0127,0.0001,-0.996
-0.0119,-0.0005,-0.9979
-0.0105,-0.0002,-0.9981
-0.0101,-0.0002,-0.998
-0.0115,-0.0001,-0.9984
-0.0132,-0.0007,-0.998
-0.0136,-0.0008,-0.9966
-0.0136,-0.0005,-0.9985
-0.0146,-0.0009,-1
-0.016,-0.0016,-0.9984
-0.0157,0.0008,-0.9981
-0.013,0.0006,-0.9993
-0.0116,-0.0012,-0.9979
-0.0123,-0.0001,-0.9969
-0.0124,0.0009,-0.9983
-0.0122,-0.0001,-0.9986
-0.0124,0,-0.9984
-0.013,-0.0011,-0.9973
-0.0131,-0.0011,-0.9973
-0.0137,-0.0001,-0.9988
-0.0146,-0.0003,-0.9984
-0.0143,-0.0008,-0.9984
-0.0133,0.0005,-0.998
-0.0139,0.0001,-0.9969
-0.0135,-0.0002,-0.9967
-0.0119,-0.0002,-0.9978
-0.0105,-0.0006,-0.9983
-0.0109,-0.0006,-0.9985
-0.0127,-0.0003,-0.9977
-0.0139,-0.0009,-0.997
-0.0141,-0.001,-0.9967
-0.0135,0.0002,-0.9967
-0.0136,0.0002,-0.9975
-0.0143,-0.0003,-0.999
-0.0142,-0.0004,-0.9982
-0.0133,-0.0007,-0.9966
-0.0116,-0.0002,-0.996
-0.011,-0.0001,-0.9975
-0.0115,-0.0003,-0.9987
-0.0118,-0.0006,-0.9989
-0.0118,-0.0011,-0.9983
-0.0123,-0.0007,-0.9972
-0.0124,0.0006,-0.997
-0.0123,-0.0001,-0.9978
-0.0132,-0.0015,-0.9984
-0.0137,-0.0017,-0.9981
-0.0136,-0.0018,-0.9988
-0.0121,-0.0009,-0.9975
-0.0117,-0.0013,-0.9967
-0.0118,-0.0021,-0.9975
-0.0118,-0.001,-0.9972
-0.0124,-0.0003,-0.9978
-0.0121,-0.0007,-0.9978
-0.0121,-0.0005,-0.9978
-0.0122,-0.0007,-0.9981
-0.0133,-0.0002,-0.9971
-0.014,-0.0001,-0.9977
-0.0136,-0.0013,-0.9989
-0.0135,-0.0021,-0.9986
-0.0125,-0.0009,-0.9971
-0.0111,0.0004,-0.9967
-0.0118,0.0005,-0.9983
-0.0131,-0.0003,-0.9989
-0.0138,-0.0009,-0.9985
-0.0135,0.0006,-0.9967
-0.013,0.0003,-0.9965
-0.0127,0,-0.9972
-0.0122,-0.0004,-0.9982
-0.0123,-0.0013,-0.9978
-0.013,-0.0012,-0.9979
-0.0126,-0.0004,-0.9984
-0.0125,0.0001,-0.9974
-0.0123,-0.0001,-0.9967
-0.0126,-0.0007,-0.9975
-0.0128,-0.0013,-0.9979
-0.0134,-0.0019,-0.9974
-0.0134,-0.0024,-0.998
-0.0134,-0.0017,-0.9983
-0.0132,-0.0008,-0.9982
-0.0133,0.0003,-0.9974
-0.0135,0.0001,-0.9979
-0.0122,-0.0007,-0.9989
-0.0118,-0.0013,-0.9986
-0.0116,-0.0009,-0.9976
-0.0114,0,-0.9974
-0.0122,0,-0.9977
-0.0131,-0.0006,-0.9977
-0.0138,-0.0005,-0.998
-0.0141,-0.0005,-0.998
-0.0136,-0.0003,-0.9977
-0.0126,-0.0005,-0.9977
-0.0122,-0.0004,-0.9979
-0.012,-0.0008,-0.9977
-0.0126,-0.0012,-0.9985
-0.0125,-0.001,-0.9983
-0.0119,0.0004,-0.9978
-0.0123,0.0007,-0.9978
-0.013,-0.0005,-0.9975
-0.0134,-0.0011,-0.9976
-0.0147,-0.0007,-0.9988
-0.0148,-0.0006,-0.9987
-0.0141,-0.0002,-0.9976
-0.0132,-0.0001,-0.9978
-0.0121,-0.0004,-0.997
-0.0125,-0.0007,-0.997
-0.0132,-0.0009,-0.9976
-0.0118,0.0001,-0.9969
-0.0114,0,-0.9971
-0.0107,0.0002,-0.9966
-0.0121,-0.0001,-0.997
-0.0137,-0.0009,-0.9982
-0.0138,-0.0014,-0.9988
-0.0131,-0.0003,-0.9982
-0.0137,0.001,-0.9976
-0.0135,-0.0004,-0.9985
-0.0128,-0.0014,-0.9984
-0.0127,-0.0017,-0.9988
-0.0116,-0.0015,-0.9991
-0.0121,-0.0005,-0.9976
-0.0124,-0.0004,-0.9969
-0.0126,0.0001,-0.9969
-0.0127,0.0011,-0.9966
-0.0122,0.0003,-0.9978
-0.0135,-0.0015,-0.9981
-0.0136,-0.0023,-0.9984
-0.0135,-0.0016,-0.9985
-0.0132,-0.0006,-0.9977
-0.0126,-0.0001,-0.9972
-0.0125,-0.0005,-0.9977
-0.0123,-0.0017,-0.9975
-0.0112,-0.0015,-0.9973
-0.0115,-0.0008,-0.9975
-0.0121,0.0001,-0.9966
-0.0121,0.0006,-0.9962
-0.0132,0.0009,-0.9971
-0.0136,0.0008,-0.9982
-0.0134,0.0001,-0.9984
-0.0132,-0.0001,-0.9978
-0.0114,-0.0002,-0.9982
-0.0114,-0.0011,-0.9986
-0.0127,-0.0012,-0.9971
-0.0127,-0.0016,-0.9971
-0.0123,-0.0013,-0.9971
-0.0127,-0.0007,-0.9976
-0.012,0.0001,-0.9982
-0.012,0.0014,-0.9974
-0.0132,0.0007,-0.9977
-0.0133,-0.0003,-0.9981
-0.013,0.0001,-0.9979
-0.0118,0.0003,-0.9975
-0.0118,0.0003,-0.9977
-0.0127,-0.0015,-0.9983
-0.013,-0.0021,-0.9977
-0.0134,-0.0008,-0.9974
-0.0134,-0.0004,-0.9976
-0.0124,-0.0006,-0.9978
-0.0122,-0.0008,-0.9985
-0.0126,-0.0004,-0.9985
-0.0128,-0.0007,-0.9983
-0.0138,-0.0012,-0.9979
-0.013,-0.0008,-0.9973
-0.0114,-0.0008,-0.998
-0.0119,-0.0012,-0.9979
-0.0123,-0.0007,-0.9972
-0.0122,-0.0013,-0.9983
-0.0115,-0.0011,-0.9985
-0.0124,0,-0.9976
-0.0132,0.0001,-0.9975
-0.0121,0,-0.9975
-0.0119,0.0002,-0.9975
-0.0132,-0.0004,-0.9975
-0.0131,-0.0014,-0.9977
-0.0134,-0.001,-0.9979
-0.0127,-0.0008,-0.9985
-0.0117,-0.0001,-0.9982
-0.0121,0.0002,-0.9978
-0.0131,0.0004,-0.9976
-0.0134,0.0008,-0.9978
-0.0132,0.0005,-0.9978
-0.0132,0,-0.9984
-0.0123,-0.0003,-0.9982
-0.0117,-0.0011,-0.9974
-0.0127,-0.0014,-0.9978
-0.0128,-0.0015,-0.9987
-0.0126,-0.0008,-0.9988
-0.0125,-0.0006,-0.9982
-0.0139,-0.0005,-0.9977
-0.014,-0.0008,-0.9977
-0.0139,-0.0012,-0.9988
-0.0132,-0.0011,-0.9979
-0.0128,0,-0.9969
-0.0127,0.0001,-0.9973
-0.0122,-0.0001,-0.9977
-0.0109,-0.0004,-0.9976
-0.0106,-0.0007,-0.9972
-0.0117,0.0003,-0.9977
-0.0133,0.0008,-0.9974
